Diff_Accel_X,Diff_Accel_Y,Diff_Accel_Z,Magnitude_Accel,Magnitude_Gyro,Diff_Mag_Gyro,Diff_Mag_Accel,Is_High_Accel,Is_High_Accel_2,Is_High_Accel_3
,,,0.800915055,3.076897788,,,0,0,0
0.01665,0.00455,0.0012,0.980315394,0.100498756,2.976399032,0.179400339,1,1,1
0.00125,0.0005,5e-05,1.010041628,0.126885775,0.026387019,0.029726234,1,1,1
0.00785,0.003,0.00025,0.919720146,1.957447317,1.830561542,0.090321482,1,0,1
0.0175,0.00305,0.00175,1.894793713,0.304302481,1.653144836,0.975073568,1,1,1
0.00395,0.00085,0.00145,1.911537047,1.997848843,1.693546362,0.016743333,1,1,0
0.04365,0.0027,0.00245,2.151020877,0.491731634,1.506117209,0.23948383,1,1,1
0.0158,0.00985,0.00125,1.317126427,0.864233765,0.372502131,0.83389445,1,1,1
0.0405,0.00185,0.00255,3.042137673,1.568534348,0.704300583,1.725011245,1,1,1
0.00775,0.00265,0.0003,2.118871591,0.599166087,0.969368261,0.923266082,1,1,1
0.04175,0.01955,0.0041,2.034665183,0.381837662,0.217328425,0.084206408,1,1,1
0.0111,0.0121,0.0019,1.061790828,1.076057619,0.694219957,0.972874355,1,1,1
0.02045,0.01255,0.00115,1.660322858,0.698784659,0.37727296,0.598532029,1,1,1
0.00455,0.0001,0.0007,1.535629669,1.760056817,1.061272158,0.124693188,1,1,1
0.01855,0.0266,0.004,0.64805245,0.402119385,1.357937432,0.887577219,1,0,1
0.00865,0.01405,0.00435,1.055399578,0.784219357,0.382099972,0.407347128,1,1,1
0.0122,0.01105,0.00095,1.84246108,0.320624391,0.463594966,0.787061502,1,1,1
0.0038,0.0003,0.00175,1.312596456,0.771556868,0.450932477,0.529864624,1,1,1
0.0173,0.0276,0.00045,1.579969244,0.745519953,0.026036915,0.267372788,1,1,1
0.00455,0.00835,0.00115,0.89756047,0.326190129,0.419329824,0.682408775,1,0,1
0.01565,0.01885,0.00075,1.447884245,0.832406151,0.506216022,0.550323776,1,1,1
0.0045,0.00595,0.0018,1.647410187,0.153948043,0.678458108,0.199525942,1,1,1
0.00605,0.00845,0.00125,1.190263873,0.225166605,0.071218562,0.457146314,1,1,1
0.0091,0.0146,0.00025,0.963261587,0.13,0.095166605,0.227002286,1,1,1
0.00065,0.0004,0.00045,1.052050497,0.100498756,0.029501244,0.08878891,1,1,1
0.0102,0.01665,0.0,1.485340048,0.137477271,0.036978515,0.433289551,1,1,1
0.0003,0.0021,0.0,1.439310477,0.574369219,0.436891948,0.046029571,1,1,1
0.0204,0.02275,0.0019,1.028527139,0.49010203,0.084267189,0.410783338,1,1,1
0.0053,0.01575,0.00325,1.180327864,0.560446251,0.070344221,0.151800725,1,1,1
0.01935,0.0135,0.0036,1.528287602,1.144290173,0.583843922,0.347959738,1,1,1
0.01815,0.01055,0.00135,0.754307178,2.165617695,1.021327522,0.773980425,1,0,1
0.00915,0.02425,0.00185,1.98095497,0.146287388,2.019330306,1.226647792,1,1,1
0.0224,0.03755,0.00025,1.92096839,2.295103484,2.148816095,0.05998658,1,1,1
0.0063,0.0018,0.00295,1.67580934,0.30757113,1.987532354,0.24515905,1,1,1
0.014,0.0202,0.00215,1.037541234,1.657648938,1.350077808,0.638268106,1,1,1
0.01825,0.00925,0.00145,1.785404611,0.127279221,1.530369717,0.747863377,1,1,1
0.0433,0.03105,0.00305,2.827200798,2.10299786,1.97571864,1.041796187,1,1,1
0.012,0.00295,0.0003,1.694681379,0.270185122,1.832812738,1.132519419,1,1,1
0.01565,0.01715,0.00055,0.585422476,1.859408508,1.589223386,1.109258903,1,0,1
0.01975,0.0123,0.00375,2.125292449,0.078740079,1.780668429,1.539869973,1,1,1
0.0495,0.0347,0.0033,3.202561286,2.347147205,2.268407126,1.077268837,1,1,1
0.0093,0.00055,0.0003,2.413390193,0.865216736,1.481930469,0.789171093,1,1,1
0.0308,0.0256,0.00225,1.257902152,1.66003012,0.794813384,1.155488041,1,1,1
0.004,0.01095,0.0,1.827884588,0.06164414,1.59838598,0.569982436,1,1,1
0.0308,0.03745,0.0002,2.599774191,2.487890673,2.426246533,0.771889603,1,1,1
0.0066,0.00445,0.00285,2.365483961,0.39736633,2.090524343,0.234290231,1,1,1
0.03335,0.02095,0.00415,1.530529555,2.365692288,1.968325958,0.834954406,1,1,1
0.012,0.0084,0.00115,2.502641993,0.484252001,1.881440287,0.972112438,1,1,1
0.0524,0.03195,0.0064,3.025735846,2.636835224,2.152583224,0.523093854,1,1,1
0.01035,0.00015,0.0006,2.133737889,0.378681925,2.2581533,0.891997957,1,1,1
0.03065,0.02475,0.0004,0.734225173,2.044382547,1.665700623,1.399512716,1,0,1
0.00905,0.0047,0.0034,1.898948671,0.311769145,1.732613402,1.164723497,1,1,1
0.0493,0.0274,0.00305,3.04504963,2.238950647,1.927181502,1.146100959,1,1,1
0.0116,0.00395,0.0001,1.782158693,0.870976464,1.367974184,1.262890937,1,1,1
0.0276,0.01245,0.0031,1.292921166,3.01088027,2.139903806,0.489237527,1,1,1
0.00885,0.0088,0.0012,1.977512471,0.262488095,2.748392175,0.684591305,1,1,1
0.03175,0.023,0.0033,1.719865451,2.738430207,2.475942112,0.25764702,1,1,1
0.00345,0.00105,0.0019,1.556377063,0.201494417,2.53693579,0.163488387,1,1,1
0.00665,0.0074,0.0035,0.217864044,2.657686964,2.456192547,1.338513019,1,0,1
0.02595,0.01585,0.00805,1.780997366,0.151657509,2.506029455,1.563133323,1,1,1
0.01805,0.01495,0.00435,0.598403724,2.086528217,1.934870708,1.182593643,1,0,1
0.01405,0.0064,0.0006,1.585978219,0.923309266,1.163218951,0.987574495,1,1,1
0.00745,0.0055,0.00155,0.675423619,2.522419473,1.599110208,0.9105546,1,0,1
0.0266,0.0155,0.00475,1.748177345,0.369052842,2.153366632,1.072753726,1,1,1
0.02185,0.018,0.00435,0.623425541,2.276730111,1.90767727,1.124751805,1,0,1
0.01595,0.00705,0.0004,1.783341487,0.728697468,1.548032643,1.159915946,1,1,1
0.0122,0.0086,0.0018,0.301772122,2.507169719,1.778472251,1.481569365,1,0,1
0.0251,0.0181,0.00605,1.692193002,0.207123152,2.300046567,1.39042088,1,1,1
0.01225,0.01535,0.00245,0.676153874,2.081273649,1.874150497,1.016039128,1,0,1
0.0267,0.00685,0.00015,2.018350139,0.996092365,1.085181283,1.342196264,1,1,1
0.01005,0.0081,0.00115,0.879072993,2.600269217,1.604176852,1.139277145,1,0,1
0.027,0.01045,0.00415,1.56144357,0.279463772,2.320805445,0.682370577,1,1,1
0.01065,0.0185,0.00065,1.287407271,0.92784697,0.648383198,0.274036299,1,1,1
0.0048,0.00085,0.0013,1.033628201,0.972522493,0.044675523,0.25377907,1,1,1
0.01575,0.0026,0.00045,1.558859978,0.33763886,0.634883633,0.525231777,1,1,1
0.00645,0.0162,0.0001,1.219845734,0.511077294,0.173438433,0.339014244,1,1,1
0.0004,0.00075,0.00055,1.070832535,0.661135387,0.150058093,0.149013199,1,1,1
0.01855,0.0053,0.0028,1.241598616,0.224722051,0.436413337,0.170766081,1,1,1
0.00815,0.0108,0.00045,1.199422712,0.364417343,0.139695293,0.042175904,1,1,1
0.0062,0.0024,0.0021,0.998874941,1.290193784,0.925776441,0.200547771,1,1,1
0.01055,0.00535,0.00015,1.374068194,0.213541565,1.076652219,0.375193252,1,1,1
0.00965,0.01485,0.0001,1.027973033,0.736070649,0.522529084,0.346095161,1,1,1
0.00525,0.00435,0.0001,1.159479915,0.10198039,0.634090259,0.131506882,1,1,1
0.0212,0.00405,0.00345,1.43225712,0.216794834,0.114814444,0.272777205,1,1,1
0.00635,0.0114,0.0026,1.011960969,0.94773414,0.730939306,0.42029615,1,1,1
0.0204,0.0012,0.0011,1.533829891,0.487442304,0.460291836,0.521868922,1,1,1
0.00715,0.0107,0.00105,1.177180877,0.335559235,0.15188307,0.356649014,1,1,1
0.0006,0.00435,0.0008,1.124385566,0.381313519,0.045754285,0.05279531,1,1,1
0.0184,0.00185,0.00155,1.056776686,1.120758672,0.739445152,0.067608881,1,1,1
0.00125,0.011,0.0013,1.326153873,0.206397674,0.914360997,0.269377187,1,1,1
0.01525,0.0049,0.00305,1.139236719,1.230447073,1.024049399,0.186917153,1,1,1
0.0071,0.00465,0.00075,1.53578846,0.236220236,0.994226837,0.39655174,1,1,1
0.0028,0.01155,0.0006,1.215534485,0.596238207,0.360017971,0.320253974,1,1,1
0.02165,0.0026,0.0001,0.803117466,1.34632834,0.750090133,0.412417019,1,0,1
0.00285,0.0086,0.003,1.251045199,0.219544984,1.126783356,0.447927733,1,1,1
0.0075,0.00895,0.0025,0.972840851,1.109053651,0.889508667,0.278204348,1,1,1
0.01615,0.0005,0.00035,1.78886966,0.321558704,0.787494947,0.816028809,1,1,1
0.0087,0.01225,0.00065,1.249203591,0.398246155,0.076687451,0.539666069,1,1,1
0.0046,0.00615,0.00065,1.083028071,0.42860238,0.030356225,0.16617552,1,1,1
0.00665,0.00395,0.001,1.061625109,0.307408523,0.121193857,0.021402963,1,1,0
0.0009,0.00955,0.0006,1.175818876,0.220227155,0.087181368,0.114193767,1,1,1
0.0046,0.0058,0.0014,1.132950197,0.666558325,0.446331169,0.04286868,1,1,1
0.01085,0.00705,0.00035,1.3780365,0.236008474,0.43054985,0.245086304,1,1,1
0.0063,0.01065,5e-05,1.117376058,0.477702836,0.241694362,0.260660442,1,1,1
0.00645,0.00215,0.0003,0.929422165,0.55767374,0.079970903,0.187953893,1,0,1
0.00395,0.0061,0.0006,0.953241372,0.053851648,0.503822092,0.023819207,1,0,1
0.0077,0.00585,0.0006,1.054874481,0.508822169,0.454970521,0.101633109,1,1,1
0.0052,0.0006,0.0003,1.227760425,0.166132477,0.342689692,0.172885944,1,1,1
0.00515,0.01695,5e-05,1.099431178,0.203224014,0.037091537,0.128329248,1,1,1
0.0023,0.0015,5e-05,0.994799674,0.067082039,0.136141975,0.104631504,1,1,1
0.0083,0.013,5e-05,1.228127674,0.750333259,0.68325122,0.233328,1,1,1
0.00045,0.00905,0.001,1.319991007,1.26154667,0.51121341,0.091863333,1,1,1
0.0144,0.01065,0.0015,0.899163519,1.785861137,0.524314467,0.420827488,1,0,1
0.00085,0.0113,0.00035,0.934155766,0.260192237,1.5256689,0.034992247,1,0,1
0.00055,0.00615,0.0014,1.097095943,0.757957782,0.497765546,0.162940178,1,1,1
0.019,0.01445,0.0024,1.577196491,1.255786606,0.497828824,0.480100548,1,1,1
0.00575,0.0072,0.00115,1.228290892,0.291204396,0.964582211,0.348905599,1,1,1
0.00365,0.0134,0.0001,1.160880439,0.29,0.001204396,0.067410453,1,1,1
0.00945,0.0061,0.00145,1.272330378,1.076754382,0.786754382,0.111449939,1,1,1
0.0333,0.00125,0.00415,1.745670184,0.929139387,0.147614996,0.473339806,1,1,1
0.0145,0.00735,0.0014,1.199945454,0.332565783,0.596573604,0.54572473,1,1,1
0.00465,0.0031,0.0028,0.790283282,1.369160327,1.036594544,0.409662172,1,0,1
0.0132,0.00615,0.0009,1.383228514,0.266458252,1.102702075,0.592945232,1,1,1
0.00625,0.01,0.0006,1.207093168,0.172916165,0.093542087,0.176135347,1,1,1
0.00935,0.0029,0.0007,0.758266903,1.899552579,1.726636414,0.448826264,1,0,1
0.0058,0.00255,0.0021,1.158818367,0.242899156,1.656653423,0.400551464,1,1,1
0.00025,0.0107,0.00165,1.000430547,1.245190748,1.002291592,0.15838782,1,1,1
0.02785,0.00255,0.00085,1.867844702,0.810308583,0.434882165,0.867414155,1,1,1
0.00925,0.0068,0.0012,1.337903753,0.267207784,0.543100799,0.52994095,1,1,1
0.00845,0.01145,0.0001,1.187488339,0.332716095,0.065508311,0.150415413,1,1,1
0.0003,0.0103,0.0008,0.812092159,1.435374516,1.10265842,0.37539618,1,0,1
0.01155,0.0011,0.00145,1.018322421,0.287923601,1.147450915,0.206230261,1,1,1
0.0059,0.00845,0.0008,0.980510192,1.168160948,0.880237347,0.037812229,1,1,1
0.02395,0.00215,0.0007,1.977886058,1.085771615,0.082389333,0.997375866,1,1,1
0.0127,0.0081,0.0005,1.120650164,0.824863625,0.26090799,0.857235894,1,1,1
0.0184,0.0101,0.00135,1.352708191,1.31091571,0.486052085,0.232058027,1,1,1
0.00515,0.0063,0.0002,1.071798379,0.2310844,1.07983131,0.280909812,1,1,1
0.00185,0.0113,0.0005,1.191965247,0.862148479,0.631064079,0.120166868,1,1,1
0.01475,0.00315,0.00145,1.48575208,0.410974452,0.451174027,0.293786832,1,1,1
0.003,0.0063,0.0033,0.550082125,2.096735558,1.685761106,0.935669954,1,0,1
0.02175,0.01625,0.00355,1.33111405,0.200997512,1.895738046,0.781031925,1,1,1
0.01355,0.02235,0.00155,1.387072897,1.920911242,1.71991373,0.055958847,1,1,1
0.0237,0.0082,0.0042,2.392612517,0.182756669,1.738154573,1.005539621,1,1,1
0.0583,0.0245,0.0061,3.066367009,2.410995645,2.228238976,0.673754491,1,1,1
0.0137,0.00215,0.00035,2.098117498,1.42520174,0.985793905,0.96824951,1,1,1
0.05185,0.025,0.01105,2.598685414,1.525909565,0.100707825,0.500567916,1,1,1
0.0187,0.00435,0.00765,1.938253703,2.872246508,1.346336943,0.660431711,1,1,1
0.06035,0.0248,0.00735,5.233342942,1.593047394,1.279199113,3.295089238,1,1,1
0.0367,0.0158,0.00525,1.517972433,2.095590609,0.502543215,3.715370508,1,1,1
0.03195,0.0025,0.0004,2.623679004,1.142541028,0.953049581,1.105706571,1,1,1
0.0175,0.0071,0.00055,1.905430364,3.719542983,2.577001955,0.71824864,1,1,1
0.02425,0.01075,0.0027,1.481759615,0.555427763,3.16411522,0.423670749,1,1,1
0.0223,0.0057,0.002,1.568504739,2.475903875,1.920476112,0.086745124,1,1,1
0.0175,0.00965,0.00635,1.690800668,0.275862284,2.200041591,0.122295929,1,1,1
0.0309,0.0127,0.00675,1.609145454,0.801685724,0.525823439,0.081655214,1,1,1
0.0023,0.0223,0.0005,2.094847624,0.308868904,0.49281682,0.48570217,1,1,1
0.00465,0.0201,0.0002,1.4510044,0.793284312,0.484415408,0.643843224,1,1,1
0.02695,0.0214,0.00495,2.611788751,0.514003891,0.279280421,1.160784351,1,1,1
0.0197,0.0121,0.0017,1.08722646,0.517493961,0.00349007,1.524562291,1,1,1
0.0023,0.01095,0.0019,1.226912533,0.358189894,0.159304068,0.139686072,1,1,1
0.00875,0.02045,0.00125,1.77273952,0.243515913,0.114673981,0.545826988,1,1,1
0.00245,0.0106,0.0007,1.283636587,0.344673759,0.101157846,0.489102933,1,1,1
0.00385,0.0123,0.00165,1.415890513,0.543323108,0.198649349,0.132253926,1,1,1
0.01375,0.01455,0.00275,1.793899258,0.633087672,0.089764563,0.378008745,1,1,1
0.0079,0.00615,0.00015,1.134665061,0.266270539,0.366817133,0.659234197,1,1,1
0.0015,0.0071,0.00095,1.112625715,0.401746189,0.135475649,0.022039346,1,1,0
0.00585,0.0193,0.00025,1.549352404,0.445196586,0.043450397,0.436726689,1,1,1
0.0031,0.0065,0.00055,1.140324492,0.159059737,0.286136849,0.409027912,1,1,1
0.0086,0.00325,0.00025,1.06285874,1.179025021,1.019965284,0.077465753,1,1,1
0.0077,0.01685,0.0005,1.552682502,0.899166281,0.27985874,0.489823763,1,1,1
0.0049,0.0057,5e-05,1.186951351,0.206155281,0.693010999,0.365731151,1,1,1
0.0004,0.0034,0.0001,1.296102919,0.658103335,0.451948054,0.109151568,1,1,1
0.00015,0.0111,0.0009,1.032349699,0.692387175,0.03428384,0.263753221,1,1,1
0.00235,0.01145,0.0008,1.347510933,0.633245608,0.059141567,0.315161234,1,1,1
0.0247,0.0164,0.00045,1.054920543,2.194971526,1.561725918,0.29259039,1,1,1
0.0018,0.00395,0.0043,1.87176936,0.627455178,1.567516348,0.816848817,1,1,1
0.0162,0.0124,0.0069,0.926872797,1.95961731,1.332162132,0.944896563,1,0,1
0.0167,0.0128,0.0025,1.688977326,1.265148213,0.694469097,0.762104529,1,1,1
0.0032,0.0036,0.0009,1.581713404,0.534415569,0.730732644,0.107263923,1,1,1
0.006,0.00205,5e-05,1.223728952,1.225234671,0.690819103,0.357984452,1,1,1
0.0012,0.0005,0.0005,1.072966477,2.483384787,1.258150116,0.150762475,1,1,1
0.03795,0.00405,0.00435,2.826785022,1.557273258,0.926111529,1.753818546,1,1,1
0.02915,0.00305,0.0025,1.266620984,2.205946509,0.648673251,1.560164038,1,1,1
0.01815,0.00505,0.0045,1.364519694,0.912688337,1.293258172,0.09789871,1,1,1
0.02125,0.00185,0.0047,1.379217325,3.821949764,2.909261427,0.014697631,1,1,0
0.0134,0.0156,0.00035,1.678754288,0.921086315,2.900863449,0.299536963,1,1,1
0.0425,0.0199,0.00345,2.423898723,2.613618182,1.692531867,0.745144436,1,1,1
0.00655,0.00305,0.00095,1.901922919,1.501665742,1.11195244,0.521975804,1,1,1
0.02045,0.00715,0.001,0.621621755,2.784313201,1.282647459,1.280301164,1,0,1
0.01135,0.0077,0.00265,1.309077369,0.130766968,2.653546232,0.687455615,1,1,1
0.01125,0.0179,0.00095,1.649532742,1.879175351,1.748408383,0.340455372,1,1,1
0.0043,0.0008,0.00055,1.567449142,2.234032229,0.354856878,0.082083599,1,1,1
0.0114,0.0044,0.00555,0.837809925,2.042939059,0.19109317,0.729639217,1,0,1
0.0035,0.00865,0.00355,1.61287869,0.583952053,1.458987006,0.775068765,1,1,1
0.00685,0.0006,0.00015,1.209041738,0.319687347,0.264264706,0.403836952,1,1,1
0.01755,0.0094,0.0003,0.982777935,0.547083175,0.227395827,0.226263803,1,1,1
0.0099,0.0099,0.00215,1.280225629,0.972676719,0.425593544,0.297447694,1,1,1
0.0147,0.0212,0.0031,2.180542559,0.46151923,0.511157489,0.900316929,1,1,1
0.03795,0.0443,0.0035,2.673880711,0.816394512,0.354875282,0.493338153,1,1,1
0.02115,0.022,0.0011,1.101403579,1.590911688,0.774517176,1.572477132,1,1,1
0.02345,0.0198,0.00395,2.298801594,0.398748041,1.192163648,1.197398014,1,1,1
0.0199,0.0156,0.00295,0.997448773,1.970228413,1.571480372,1.301352821,1,1,1
0.0048,0.012,0.00015,1.256825946,3.850844063,1.88061565,0.259377173,1,1,1
0.00895,0.0168,0.00125,1.14547395,1.53,2.320844063,0.111351996,1,1,1
0.00505,0.0028,0.0021,0.662069585,0.756372924,0.773627076,0.483404366,1,0,1
0.01015,0.0093,0.00145,1.305471624,0.426497362,0.329875562,0.643402039,1,1,1
0.0079,0.00355,0.00105,1.24413419,1.176010204,0.749512842,0.061337435,1,1,1
0.0072,0.00205,0.00205,0.936084016,1.323782459,0.147772255,0.308050174,1,0,1
0.00045,0.0025,0.0001,0.940232772,1.098134782,0.225647677,0.004148756,1,0,0
0.0016,0.00105,0.00105,0.80501768,0.807589004,0.290545778,0.135215092,1,0,1
0.00165,0.00535,0.00095,1.053805784,0.435775171,0.371813833,0.248788104,1,1,1
0.00585,0.0008,0.0008,1.010726155,0.216333077,0.219442095,0.043079629,1,1,1
0.0029,0.00065,0.0004,1.042015495,0.171172428,0.045160649,0.03128934,1,1,1
0.01005,0.00655,0.00035,1.286757867,0.669776082,0.498603654,0.244742372,1,1,1
0.00385,0.0058,0.0003,1.677495371,2.53875954,1.868983458,0.390737504,1,1,1
0.01305,0.0146,0.0004,1.006063113,1.451550895,1.087208645,0.671432258,1,1,1
0.01125,0.00135,0.00115,1.180878836,2.157544901,0.705994006,0.174815723,1,1,1
0.00985,0.0073,0.00125,1.001578588,0.23430749,1.923237411,0.179300247,1,1,1
0.00555,0.00355,0.00155,0.866742708,0.208326667,0.025980824,0.13483588,1,0,1
0.0046,0.00365,0.0014,1.01878459,0.158429795,0.049896871,0.152041882,1,1,1
0.0002,0.0012,0.005,0.051157292,0.869367586,0.710937791,0.967627297,1,0,1
0.0005,0.00985,0.00475,0.971726881,0.755314504,0.114053082,0.920569589,1,1,1
0.00035,0.01065,0.00025,1.301828678,0.866140866,0.110826362,0.330101797,1,1,1
0.0016,0.00885,0.0011,0.800731107,0.637024332,0.229116534,0.501097571,1,0,1
0.00325,0.00205,0.0033,1.409857269,1.076382832,0.439358499,0.609126163,1,1,1
0.00135,0.0044,0.0001,1.331010736,1.35561794,0.279235109,0.078846534,1,1,1
0.00335,0.01105,0.00365,0.618181223,1.266728069,0.088889872,0.712829513,1,0,1
0.00295,0.0006,0.0058,1.754644088,0.273861279,0.99286679,1.136462865,1,1,1
0.00575,0.009,0.00385,0.958001673,0.100498756,0.173362523,0.796642415,1,0,1
0.0,0.0,0.0,0.958001673,0.100498756,0.0,0.0,0,0,0
5e-05,0.0,0.0,0.956742072,0.100498756,0.0,0.001259601,0,0,0
5e-05,0.0,0.0,0.958001673,0.100498756,0.0,0.001259601,0,0,0
0.0,0.0,5e-05,0.94808355,0.100498756,0.0,0.009918123,0,0,0
0.0001,0.0,5e-05,0.955491621,0.100498756,0.0,0.00740807,0,0,0
0.0001,0.0,0.0,0.958001673,0.100498756,0.0,0.002510053,0,0,0
5e-05,5e-05,5e-05,0.946650641,0.100498756,0.0,0.011351032,0,0,0
5e-05,5e-05,0.0,0.94808355,0.100498756,0.0,0.001432909,0,0,0
0.0,0.0,0.0,0.94808355,0.100498756,0.0,0.0,0,0,0
5e-05,5e-05,5e-05,0.956570085,0.100498756,0.0,0.008486535,0,0,0
0.0,5e-05,5e-05,0.946822786,0.100498756,0.0,0.009747299,0,0,0
0.0,5e-05,0.0,0.946650641,0.100498756,0.0,0.000172145,0,0,0
0.0,0.0,0.0,0.946650641,0.100498756,0.0,0.0,0,0,0
5e-05,0.00015,0.0004,0.869118989,0.104880885,0.004382129,0.077531652,1,0,1
0.0066,0.0131,0.00025,1.099844036,0.704698517,0.599817632,0.230725047,1,1,1
0.0075,0.0134,0.00055,0.835548881,0.294278779,0.410419738,0.264295155,1,0,1
0.0038,0.0083,0.00095,1.322904297,0.550181788,0.255903009,0.487355416,1,1,1
0.00055,0.00475,0.00145,1.230271982,0.629126378,0.07894459,0.092632315,1,1,1
0.0021,0.0113,0.0023,1.240457418,0.577754273,0.051372105,0.010185436,1,1,0
0.00315,0.0046,0.0005,1.044261155,0.686148672,0.108394399,0.196196263,1,1,1
0.0002,0.0062,0.0008,0.995758426,0.226936114,0.459212558,0.048502729,1,1,1
0.00065,0.0053,0.0002,0.871593133,0.181383571,0.045552543,0.124165293,1,0,1
0.0012,0.00525,5e-05,0.953320417,0.349428104,0.168044533,0.081727284,1,0,1
0.00235,0.0037,0.00025,0.979856214,0.050990195,0.298437909,0.026535797,1,1,1
0.00015,0.0092,0.00065,1.134363264,0.078740079,0.027749884,0.15450705,1,1,1
0.0023,0.0023,0.0005,1.16585154,0.085440037,0.006699959,0.031488276,1,1,1
0.00135,0.00175,0.0006,1.059930939,0.203960781,0.118520743,0.105920601,1,1,1
0.00365,0.00505,0.0007,1.00571608,0.723878443,0.519917662,0.054214859,1,1,1
0.0063,0.0053,0.0007,1.072584789,0.498397432,0.225481011,0.066868709,1,1,1
0.0039,0.0006,0.0001,1.093498061,0.349571166,0.148826266,0.020913271,1,1,0
0.0017,0.0048,0.0002,1.145149611,0.346842904,0.002728262,0.05165155,1,1,1
0.00035,0.0002,0.00085,0.968291415,0.100498756,0.246344148,0.176858196,1,1,1
0.00015,0.0001,0.0,0.972529879,0.092736185,0.007762571,0.004238464,0,1,0
0.0,5e-05,0.0,0.972321013,0.092736185,0.0,0.000208867,0,1,0
0.0001,0.00015,0.0001,0.949353469,0.100498756,0.007762571,0.022967544,0,0,1
5e-05,5e-05,5e-05,0.960729529,0.100498756,0.0,0.01137606,0,1,0
0.0,5e-05,0.0,0.960920035,0.100498756,0.0,0.000190506,0,1,0
5e-05,0.0,0.0,0.959642187,0.100498756,0.0,0.001277848,0,1,0
0.0,5e-05,5e-05,0.949925581,0.100498756,0.0,0.009716606,0,0,0
0.00025,0.00065,0.0015,0.644141899,0.092736185,0.007762571,0.305783682,1,0,1
0.00515,0.0039,0.00105,0.796466392,0.51507281,0.422336625,0.152324493,1,0,1
0.01215,0.01155,0.0003,1.291424615,1.719825573,1.204752762,0.494958223,1,1,1
0.0031,0.00045,0.00185,1.124618986,0.254754784,1.465070788,0.166805629,1,1,1
0.01115,0.0082,0.00175,0.868134795,1.044222199,0.789467415,0.256484192,1,0,1
0.00405,0.0026,0.001,0.624039524,0.462493243,0.581728955,0.244095271,1,0,1
0.001,0.00035,0.0017,0.974177463,0.182756669,0.279736574,0.350137939,1,1,1
0.00665,0.00815,0.0002,1.121771834,0.905648939,0.72289227,0.147594371,1,1,1
0.00355,5e-05,5e-05,1.01454576,0.369594372,0.536054566,0.107226074,1,1,1
0.0029,0.0023,0.0007,0.91509216,0.578100337,0.208505965,0.0994536,1,0,1
0.005,0.00435,0.00095,0.975221575,0.885155354,0.307055016,0.060129415,1,1,1
0.0015,0.00065,5e-05,0.992460331,0.278926514,0.60622884,0.017238756,1,1,0
0.0013,0.0002,0.0001,0.992830954,0.16643317,0.112493344,0.000370623,1,1,0
0.00125,0.0055,0.00015,0.96396767,0.714562803,0.548129634,0.028863284,1,1,1
0.0075,0.00345,0.00045,1.113377113,1.161765897,0.447203094,0.149409443,1,1,1
0.00085,0.00145,5e-05,1.102866596,0.328633535,0.833132363,0.010510517,1,1,0
0.0121,0.01215,0.0013,1.173996537,0.845044378,0.516410843,0.071129942,1,1,1
0.00415,0.0018,0.0008,0.98882292,0.325576412,0.519467966,0.185173617,1,1,1
0.00285,0.00205,0.00015,0.974562636,0.195192213,0.130384199,0.014260284,1,1,0
0.01255,0.0113,0.00095,1.196135685,0.416293166,0.221100953,0.221573049,1,1,1
0.0058,0.00605,0.00045,0.956309776,0.237065392,0.179227774,0.239825909,1,0,1
0.00235,0.0003,0.0003,1.081897812,0.702780193,0.465714801,0.125588036,1,1,1
0.00955,0.0066,0.0007,1.096779341,1.300269203,0.59748901,0.014881528,1,1,0
0.0029,0.001,0.0008,0.933415114,0.463141447,0.837127756,0.163364227,1,0,1
0.00165,0.00605,0.0004,1.023640792,1.212064355,0.748922908,0.090225679,1,1,1
0.0015,5e-05,0.00075,1.199063597,0.22737634,0.984688015,0.175422804,1,1,1
0.00415,0.0024,0.00125,1.101605386,0.833846509,0.606470169,0.09745821,1,1,1
0.01045,0.0094,0.0009,1.097307007,1.383112432,0.549265924,0.00429838,1,1,0
0.0048,0.0004,0.00085,0.951957961,0.154272486,1.228839946,0.145349046,1,0,1
5e-05,0.00475,0.00025,0.971411235,0.709224929,0.554952443,0.019453274,1,1,0
0.00685,0.0091,0.0007,1.197908892,0.66121101,0.048013919,0.226497657,1,1,1
0.0027,0.00245,0.0004,1.104719162,0.78460181,0.1233908,0.09318973,1,1,1
0.0046,0.00615,0.0002,0.867033327,1.167004713,0.382402903,0.237685835,1,0,1
0.0001,0.00635,0.00035,0.982161193,0.143178211,1.023826502,0.115127866,1,1,1
0.00225,0.0034,0.00025,0.968593223,1.006826698,0.863648487,0.01356797,1,1,0
0.00225,0.009,0.00015,1.05013364,2.011616266,1.004789567,0.081540417,1,1,1
0.00885,0.019,0.0007,1.325264042,5.188419798,3.176803532,0.275130402,1,1,1
0.00625,0.01175,0.0003,0.919650181,0.102956301,5.085463497,0.405613861,1,0,1
0.00015,0.0003,0.00015,0.893479322,0.100995049,0.001961252,0.026170859,1,0,1
0.00015,0.0001,0.00035,0.96643395,0.091104336,0.009890714,0.072954628,1,1,1
0.00015,0.0,5e-05,0.96011617,0.092736185,0.001631849,0.00631778,0,1,0
0.0001,0.0,5e-05,0.972492748,0.100995049,0.008258864,0.012376577,0,1,0
0.00155,0.00185,0.00205,0.618066039,0.356230263,0.255235213,0.354426708,1,0,1
0.01215,0.01625,0.00565,1.984642549,0.834505842,0.478275579,1.366576509,1,1,1
0.0251,0.0137,0.00315,1.780643333,3.923123755,3.088617914,0.203999216,1,1,1
0.0133,0.0041,0.0001,1.152228084,2.36050842,1.562615336,0.628415249,1,1,1
0.04235,0.00925,0.00055,3.142295005,1.144552314,1.215956106,1.990066921,1,1,1
0.0776,0.02455,0.0055,3.852139027,1.332141134,0.187588819,0.709844021,1,1,1
0.04215,0.013,0.0051,1.119221584,3.283367174,1.95122604,2.732917443,1,1,1
0.0019,0.00895,0.00045,0.949502314,1.553447778,1.729919396,0.16971927,1,0,1
0.007,0.01165,5e-05,1.387877368,1.115347479,0.438100299,0.438375054,1,1,1
0.0118,0.00975,0.00015,1.016404208,0.863770803,0.251576677,0.37147316,1,1,1
0.0092,0.00115,0.0004,0.981822666,0.877610392,0.013839589,0.034581542,1,1,1
0.0042,0.008,0.00105,1.107859552,2.264111305,1.386500913,0.126036886,1,1,1
0.00195,0.0076,0.0005,1.406002856,4.6079171,2.343805795,0.298143304,1,1,1
0.02355,0.00035,0.00305,1.565799576,1.307096018,3.300821082,0.15979672,1,1,1
0.0141,0.0032,0.00425,1.845681603,3.98470827,2.677612252,0.279882027,1,1,1
0.0226,0.0136,0.00125,2.131512897,3.647588244,0.337120026,0.285831293,1,1,1
0.0066,0.0012,0.0035,1.15243352,1.312783303,2.334804942,0.979079377,1,1,1
0.01505,0.0002,0.00105,1.244573328,2.172418008,0.859634705,0.092139809,1,1,1
0.0039,0.00245,0.0007,1.058291763,2.892818695,0.720400687,0.186281566,1,1,1
0.0209,0.01155,0.00195,1.874506414,2.956247622,0.063428927,0.816214651,1,1,1
0.0013,0.0013,0.0001,1.739553718,1.806128456,1.150119165,0.134952696,1,1,1
0.02665,0.00525,0.00285,1.381439979,3.922958068,2.116829611,0.358113739,1,1,1
0.0104,0.00845,0.0008,1.554307553,2.752053779,1.170904289,0.172867574,1,1,1
0.00885,0.00325,0.0004,1.152355911,1.227721467,1.524332312,0.401951642,1,1,1
0.00965,0.0067,0.00085,1.195931066,2.445690087,1.21796862,0.043575155,1,1,1
0.0105,5e-05,0.00045,1.209282447,3.78687206,1.341181973,0.013351381,1,1,0
0.03155,0.0114,0.0021,1.968780735,2.508405868,1.278466192,0.759498288,1,1,1
0.00435,0.0001,0.0003,1.698082449,2.37307817,0.135327698,0.270698287,1,1,1
0.02385,0.0013,0.0035,1.812725778,4.001774606,1.628696437,0.114643329,1,1,1
0.0013,0.01385,0.00015,1.521731316,2.852174609,1.149599997,0.290994462,1,1,1
0.0048,0.0041,0.00225,1.24735715,2.05983009,0.792344519,0.274374166,1,1,1
0.016,0.00815,0.0001,1.114898076,2.659041181,0.59921109,0.132459074,1,1,1
0.0054,0.00225,0.00345,0.423013254,3.283717406,0.624676225,0.691884821,1,0,1
0.0072,0.00515,0.0037,1.180842408,1.983053202,1.300664204,0.757829154,1,1,1
0.0043,0.0004,0.0002,1.058254924,2.428023888,0.444970686,0.122587484,1,1,1
0.0111,0.0055,0.00025,1.186928597,3.622457729,1.194433841,0.128673673,1,1,1
0.01655,0.01095,0.00145,2.310544992,4.11029196,0.487834231,1.123616395,1,1,1
0.0065,0.00205,0.00055,1.873092992,3.020860804,1.089431156,0.437452,1,1,1
0.03585,0.0026,0.0044,2.484193095,5.305139018,2.284278213,0.611100103,1,1,1
0.00515,0.0227,0.0026,1.300968426,1.095308176,4.209830842,1.183224669,1,1,1
0.01165,0.00055,0.00015,0.973782994,1.255189229,0.159881053,0.327185432,1,1,1
0.00045,0.0037,0.00115,1.158001643,1.566748225,0.311558996,0.184218649,1,1,1
0.00335,0.0024,0.00015,1.18844848,2.92948801,1.362739785,0.030446837,1,1,1
0.00655,0.0049,0.0023,0.918866545,3.702012966,0.772524956,0.269581936,1,0,1
0.0104,0.00675,0.00035,1.591518775,1.06611444,2.635898526,0.67265223,1,1,1
0.0134,0.0026,0.00305,1.488782042,3.548253091,2.482138651,0.102736733,1,1,1
0.0143,0.00545,0.0003,1.491204542,3.948809947,0.400556856,0.002422499,1,1,0
0.00065,0.00875,0.00235,1.007580673,1.785133048,2.163676899,0.483623869,1,1,1
0.0087,0.0019,0.00045,1.292488449,1.919843744,0.134710695,0.284907777,1,1,1
0.0121,0.01275,0.0024,1.4698181,4.101536298,2.181692554,0.17732965,1,1,1
0.0289,0.0095,0.00195,2.550291495,3.910639334,0.190896964,1.080473395,1,1,1
0.00115,0.0045,0.00045,2.121799361,1.620185175,2.290454159,0.428492134,1,1,1
0.02925,0.0034,0.00505,2.422524289,5.130555525,3.510370351,0.300724928,1,1,1
0.0195,0.02905,0.00235,2.606228275,2.758369083,2.372186442,0.183703985,1,1,1
0.00415,0.00225,5e-05,2.226329448,0.437949769,2.320419315,0.379898826,1,1,1
0.02005,0.01125,0.0,1.331891124,2.986804312,2.548854543,0.894438324,1,1,1
0.0077,0.01155,0.00085,1.595823796,4.36595923,1.379154918,0.263932672,1,1,1
0.0145,0.0031,0.0014,1.868658878,0.889044431,3.476914799,0.272835081,1,1,1
0.00735,0.0036,0.0021,1.995630547,3.539011161,2.64996673,0.126971669,1,1,1
0.03,0.0039,0.0034,2.62956556,4.534820834,0.995809673,0.633935013,1,1,1
0.01095,0.01595,0.00555,0.951139474,0.620805928,3.914014907,1.678426085,1,0,1
0.0086,0.00405,5e-05,0.876441355,1.792037946,1.171232018,0.07469812,1,0,1
0.0035,0.00085,0.0014,1.140772368,2.544503881,0.752465935,0.264331013,1,1,1
0.0093,0.0111,0.0009,1.333647201,4.232103496,1.687599615,0.192874834,1,1,1
0.00665,0.00395,0.00065,1.362983472,1.753710352,2.478393144,0.029336271,1,1,1
0.00065,0.00775,0.00185,2.049932489,3.135442552,1.3817322,0.686949017,1,1,1
0.03515,0.0135,0.0037,2.553355819,3.802564924,0.667122371,0.50342333,1,1,1
0.0143,0.0048,0.0057,0.862917049,1.169273279,2.633291645,1.69043877,1,0,1
0.0023,0.0027,0.0016,1.132273323,1.914523439,0.745250161,0.269356273,1,1,1
0.00335,0.00205,0.00015,1.15584319,2.753343422,0.838819983,0.023569867,1,1,1
0.0277,0.0057,0.00375,1.975466021,2.550803795,0.202539627,0.819622831,1,1,1
0.0101,0.00145,0.0033,1.799331877,2.223915466,0.326888329,0.176134143,1,1,1
0.02815,0.00295,0.0023,1.745150497,3.876196589,1.652281123,0.05418138,1,1,1
0.009,0.0139,0.0035,0.943895941,1.491241094,2.384955496,0.801254556,1,0,1
0.0012,0.0032,0.0009,1.044745271,0.440681291,1.050559803,0.10084933,1,1,1
0.01115,0.0048,0.00125,0.964873432,1.795912025,1.355230734,0.07987184,1,1,1
0.0272,0.0187,0.00015,1.890372107,3.472333509,1.676421485,0.925498675,1,1,1
0.0061,0.0053,0.0008,1.458312485,2.076198449,1.39613506,0.432059622,1,1,1
0.0031,0.0092,0.00045,1.217481563,2.149441788,0.073243339,0.240830921,1,1,1
0.01325,0.0051,0.00305,1.461887053,3.613419433,1.463977645,0.24440549,1,1,1
0.01145,0.0008,0.0057,0.56501809,1.837008438,1.776410996,0.896868964,1,0,1
0.00955,0.00145,0.0056,1.44968444,2.192806421,0.355797983,0.88466635,1,1,1
0.0047,0.00415,0.0026,0.948976695,2.926448359,0.733641938,0.500707745,1,0,1
0.00015,0.00315,0.0,0.994984947,3.123539659,0.197091299,0.046008251,1,1,1
0.0132,0.0042,0.0009,1.395575019,0.86827415,2.255265509,0.400590072,1,1,1
0.00505,0.00175,0.00275,1.623510844,2.071569453,1.203295303,0.227935825,1,1,1
0.0174,0.00745,0.00015,1.393042482,3.217747659,1.146178206,0.230468362,1,1,1
0.00085,0.01055,0.0021,1.176520396,0.754850979,2.462896681,0.216522086,1,1,1
0.00515,0.0029,0.00045,1.08816789,0.990101005,0.235250026,0.088352506,1,1,1
0.00075,0.00285,0.0002,0.98512865,1.229024003,0.238922998,0.10303924,1,1,1
0.0109,0.0063,0.00025,1.280546015,2.569708155,1.340684152,0.295417365,1,1,1
0.047,0.0257,0.00415,3.574131748,3.063462094,0.493753939,2.293585732,1,1,1
0.0068,0.00645,0.0006,2.507985213,1.423727502,1.639734592,1.066146535,1,1,1
0.03095,0.00335,0.0029,1.479587758,3.436553506,2.012826004,1.028397454,1,1,1
0.0112,0.02285,0.0014,1.550462546,1.756644529,1.679908977,0.070874787,1,1,1
0.01505,0.0064,0.0009,1.201949827,0.384187454,1.372457074,0.348512718,1,1,1
0.0018,0.0086,0.0001,1.004022399,0.684324484,0.30013703,0.197927428,1,1,1
0.0025,0.003,0.00025,1.00298107,0.78057671,0.096252225,0.001041329,1,1,0
0.00155,0.00365,0.0004,0.885719442,1.882657696,1.102080986,0.117261628,1,0,1
0.00075,0.00425,0.0007,1.020443614,2.452060358,0.569402662,0.134724172,1,1,1
0.00415,0.00215,0.0006,0.960083643,0.287228132,2.164832226,0.060359971,1,1,1
0.01045,0.01,0.001,1.403182584,0.605392435,0.318164302,0.443098941,1,1,1
0.01315,0.00835,0.0017,1.053335893,2.2776523,1.672259865,0.349846691,1,1,1
0.01505,0.01545,0.0016,1.886321064,0.758287544,1.519364756,0.832985171,1,1,1
0.0117,0.00585,0.00175,1.102646468,0.653375849,0.104911695,0.783674596,1,1,1
0.0035,0.00575,0.00015,0.984512043,1.340261169,0.68688532,0.118134425,1,1,1
0.00715,0.00765,0.0004,1.129268045,2.941241235,1.600980066,0.144756002,1,1,1
0.0041,0.00605,0.0,1.165226856,0.423792402,2.517448833,0.035958811,1,1,1
0.00735,0.0093,0.00185,1.267438728,1.185790875,0.761998473,0.102211872,1,1,1
0.01275,0.006,0.0035,1.399049067,2.655070621,1.469279745,0.131610339,1,1,1
0.0189,0.0117,0.00065,1.83265232,2.669269563,0.014198942,0.433603253,1,1,1
0.019,0.0047,0.0021,0.868711262,0.849058302,1.820211261,0.963941058,1,0,1
0.0035,0.00395,0.00065,1.07193635,0.12083046,0.728227842,0.203225088,1,1,1
0.0011,0.00695,0.00095,1.142970346,1.97225759,1.85142713,0.071033996,1,1,1
0.00085,0.0045,0.00045,1.074272389,2.754541704,0.782284115,0.068697957,1,1,1
0.01475,0.00525,0.00125,1.41388871,2.631007412,0.123534293,0.339616321,1,1,1
0.00085,0.0006,0.0,1.348255469,0.475184175,2.155823237,0.065633241,1,1,1
0.01545,0.0183,0.0014,1.273341862,2.347530617,1.872346443,0.074913607,1,1,1
5e-05,0.00375,0.00095,0.970041783,1.744505661,0.603024957,0.30330008,1,1,1
0.00725,0.00355,0.00155,1.316658671,2.256568191,0.51206253,0.346616888,1,1,1
0.02665,0.00835,0.00125,1.665295461,1.227843638,1.028724553,0.34863679,1,1,1
0.00065,0.0036,0.00105,1.468318419,1.797637338,0.5697937,0.196977041,1,1,1
0.02805,0.01025,0.00205,1.529258581,4.688133957,2.890496619,0.060940162,1,1,1
0.0001,0.0031,0.0015,1.124582372,1.372698073,3.315435884,0.404676209,1,1,1
0.02365,0.00905,0.0002,1.322135586,0.122065556,1.250632517,0.197553214,1,1,1
0.0084,0.0017,5e-05,0.974534793,0.090553851,0.031511705,0.347600794,1,1,1
5e-05,0.0,0.00015,0.943509669,0.100498756,0.009944905,0.031025124,0,0,1
0.00015,5e-05,0.00045,0.857940702,0.104880885,0.004382129,0.085568967,1,0,1
0.0117,0.0008,0.00055,1.303359852,1.275029411,1.170148527,0.44541915,1,1,1
0.0136,0.00475,0.00325,1.400848182,0.979897954,0.295131458,0.09748833,1,1,1
0.0002,0.0171,0.0035,1.578936681,3.698067063,2.718169109,0.178088499,1,1,1
0.01745,0.0291,0.00345,0.311884097,1.436836804,2.261230259,1.267052584,1,0,1
0.03195,0.01505,0.00415,2.23686421,0.126885775,1.309951028,1.924980112,1,1,1
0.006,0.01435,0.00115,1.395155202,0.915641851,0.788756076,0.841709007,1,1,1
0.00385,0.02605,0.0001,1.786548235,0.259807621,0.65583423,0.391393033,1,1,1
0.00255,0.0037,0.0015,1.206752473,1.847078775,1.587271154,0.579795762,1,1,1
0.01185,0.01425,0.0054,1.811003402,1.17158013,0.675498645,0.604250929,1,1,1
0.00195,0.013,0.00385,1.284665083,0.669701426,0.501878704,0.526338319,1,1,1
0.00525,0.0036,0.00115,1.239827897,0.221359436,0.44834199,0.044837186,1,1,1
0.02165,0.01835,0.00035,1.760990442,0.202237484,0.019121952,0.521162545,1,1,1
0.0056,0.0082,0.0007,1.407644712,0.613269924,0.41103244,0.35334573,1,1,1
0.0172,0.00545,0.0037,1.768707793,0.893252484,0.27998256,0.361063081,1,1,1
0.0083,0.0304,0.00205,1.347784533,1.230203235,0.336950751,0.42092326,1,1,1
0.0133,0.0055,0.00055,1.208878235,0.501597448,0.728605787,0.138906298,1,1,1
0.0152,0.00045,0.00175,1.61473609,0.772334125,0.270736676,0.405857854,1,1,1
0.00025,0.01145,0.00055,1.597969117,0.379868398,0.392465726,0.016766972,1,1,0
0.00425,0.0106,0.0036,0.969893221,1.453822548,1.073954149,0.628075896,1,1,1
0.02785,0.003,0.0071,1.872570411,0.691447757,0.762374791,0.90267719,1,1,1
0.00065,0.01085,0.0008,1.487714561,1.776879287,1.08543153,0.38485585,1,1,1
0.02605,0.01725,0.00335,1.631229155,1.871950854,0.095071567,0.143514595,1,1,1
0.0069,0.00715,0.00165,2.051987175,0.115758369,1.756192485,0.42075802,1,1,1
0.0061,0.02015,0.00195,1.272461334,1.629785262,1.514026893,0.779525841,1,1,1
0.01145,0.00815,0.0019,1.596183572,1.3897122,0.240073062,0.323722237,1,1,1
0.01275,0.01255,0.0016,1.430859273,0.376961536,1.012750664,0.165324299,1,1,1
0.0024,0.0112,0.0018,1.0174766,1.211156472,0.834194936,0.413382672,1,1,1
0.0104,0.01325,0.0002,1.560814231,1.013015301,0.198141171,0.543337631,1,1,1
0.0181,0.01815,0.00085,1.688363678,0.12083046,0.892184841,0.127549447,1,1,1
0.0061,0.0137,0.0001,1.571723704,1.233288287,1.112457828,0.116639974,1,1,1
0.0206,0.0011,0.0044,1.965683151,1.127918437,0.105369851,0.393959447,1,1,1
0.0091,0.00975,0.0016,1.59257653,0.661059755,0.466858682,0.37310662,1,1,1
0.0177,0.01875,0.00405,0.914074855,1.197873115,0.53681336,0.678501675,1,0,1
0.0092,0.01295,0.0005,0.966136726,0.100995049,1.096878066,0.052061871,1,1,1
0.0015,0.004,0.0015,1.345927507,0.243721152,0.142726103,0.379790782,1,1,1
0.00195,0.0085,0.0029,1.130754777,0.862844134,0.619122982,0.21517273,1,1,1
0.01075,0.00545,0.00385,1.210581274,0.364142829,0.498701305,0.079826497,1,1,1
0.0031,0.0063,0.00175,1.169676385,0.400998753,0.036855924,0.040904889,1,1,1
0.00535,0.00195,0.00195,1.324338183,0.738105683,0.33710693,0.154661797,1,1,1
0.0094,0.0096,0.00055,1.028601018,0.253179778,0.484925905,0.295737165,1,1,1
0.00795,0.0088,0.0007,1.003115291,0.520096145,0.266916367,0.025485726,1,1,1
0.0037,0.00275,0.0009,0.998620282,0.559016994,0.038920849,0.004495009,1,1,0
0.0035,0.01295,0.0003,0.947320596,0.308706981,0.250310014,0.051299686,1,0,1
0.0041,0.01575,0.0002,1.645689145,0.863133825,0.554426844,0.698368549,1,1,1
0.0151,0.0094,0.0021,1.231382506,1.13481276,0.271678935,0.414306639,1,1,1
0.00075,0.00485,0.00075,0.980449898,0.176635217,0.958177543,0.250932608,1,1,1
0.0023,0.01365,0.0006,1.052437514,0.481352262,0.304717045,0.071987616,1,1,1
0.00155,0.00435,0.0006,1.356594462,0.389101529,0.092250733,0.304156948,1,1,1
0.01315,0.03515,0.0012,2.276862175,0.192873015,0.196228514,0.920267713,1,1,1
0.00285,0.00875,0.00175,1.339860861,0.776208735,0.58333572,0.937001314,1,1,1
0.01135,0.0057,0.00095,1.106222994,0.439431451,0.336777284,0.233637867,1,1,1
0.0035,0.0278,0.0015,1.628267585,0.380131556,0.059299895,0.522044591,1,1,1
0.0047,0.0102,0.0008,1.151041046,0.470956474,0.090824917,0.477226539,1,1,1
0.0068,0.02215,0.00165,1.486713428,0.967780967,0.496824493,0.335672381,1,1,1
0.0105,0.00415,0.00105,1.454194774,1.281756607,0.31397564,0.032518654,1,1,1
0.01005,0.0038,0.0008,1.130215002,1.294372435,0.012615828,0.323979771,1,1,1
0.00015,0.0029,0.006,-0.146166565,2.308116115,1.01374368,1.276381567,1,0,1
0.017,0.02575,0.0041,1.958477793,0.259807621,2.048308494,2.104644357,1,1,1
0.0196,0.00715,0.0035,1.396307427,0.204205779,0.055601843,0.562170366,1,1,1
0.0166,0.0076,0.00235,1.415926177,0.254950976,0.050745197,0.01961875,1,1,0
0.0038,0.0086,0.0008,1.88504172,1.446305639,1.191354663,0.469115543,1,1,1
0.0123,0.0062,0.002,1.72490347,1.724818831,0.278513193,0.16013825,1,1,1
0.0206,0.007,0.00185,1.844642545,1.173413823,0.551405008,0.119739075,1,1,1
0.00625,0.01315,0.0042,0.953552901,0.243721152,0.929692671,0.891089644,1,0,1
0.0067,0.01025,0.00265,1.354859927,0.402367991,0.158646839,0.401307026,1,1,1
0.00105,0.00945,0.0012,1.332380698,0.680367548,0.277999557,0.02247923,1,1,1
0.0071,0.00085,0.0014,1.172902989,1.348109788,0.66774224,0.159477709,1,1,1
0.00085,0.0019,0.0027,0.613630491,1.40064271,0.052532922,0.559272498,1,0,1
0.0082,0.01075,0.00185,1.271318801,0.534415569,0.866227141,0.65768831,1,1,1
0.00655,0.016,0.00225,1.085747563,0.172916165,0.361499404,0.185571239,1,1,1
0.0079,0.01265,0.0038,1.03353128,0.195448203,0.022532038,0.052216283,1,1,1
0.02515,0.0067,0.0015,2.154082984,0.580603135,0.385154932,1.120551704,1,1,1
0.01375,0.01715,0.00125,1.915861044,1.595524992,1.014921857,0.238221941,1,1,1
0.00725,0.00805,0.00205,0.815446293,2.204926303,0.609401311,1.100414751,1,0,1
0.0233,0.01215,0.0037,1.652571764,0.811972906,1.392953397,0.837125471,1,1,1
0.0122,0.00705,0.0012,1.153396733,0.286006993,0.525965913,0.49917503,1,1,1
0.0074,0.0125,0.0017,1.386371172,0.341320963,0.05531397,0.232974439,1,1,1
0.00515,0.0108,0.00215,1.282116224,0.1396424,0.201678563,0.104254948,1,1,1
0.0256,0.006,0.00155,1.830864112,0.735798886,0.596156485,0.548747888,1,1,1
0.0173,0.015,0.00415,1.595213908,0.78089692,0.045098035,0.235650205,1,1,1
0.0157,0.0041,0.00155,1.439670814,0.670969448,0.109927472,0.155543094,1,1,1
0.00655,0.01455,0.00105,1.351811512,0.354541958,0.31642749,0.087859302,1,1,1
0.0053,0.0059,0.00025,1.561769228,0.442379927,0.087837969,0.209957716,1,1,1
0.0139,0.00395,0.0028,1.432439628,0.854283325,0.411903398,0.1293296,1,1,1
0.0064,0.0029,0.00095,0.995017369,0.474341649,0.379941676,0.437422259,1,1,1
0.0116,0.01005,0.00115,0.853891308,0.258069758,0.216271891,0.141126061,1,0,1
0.0072,0.0089,0.0015,1.446181574,0.301164407,0.043094649,0.592290266,1,1,1
0.01665,0.00735,0.00015,1.280925052,0.712390342,0.411225936,0.165256523,1,1,1
0.0079,0.02035,0.0015,1.875675569,0.291547595,0.420842748,0.594750518,1,1,1
0.004,0.00735,0.00025,1.263914316,0.639140047,0.347592453,0.611761253,1,1,1
0.00895,0.01115,0.0015,1.099972477,0.446989933,0.192150114,0.163941839,1,1,1
0.00345,0.0053,0.00115,0.915904068,0.127279221,0.319710712,0.184068409,1,0,1
0.0037,0.00065,0.00065,1.061924323,0.404103947,0.276824726,0.146020255,1,1,1
0.00165,0.01175,5e-05,1.089779612,0.286530976,0.117572971,0.027855289,1,1,1
0.0023,0.0022,0.00035,1.27410493,0.254950976,0.03158,0.184325318,1,1,1
0.00535,0.00535,0.0008,1.53505183,0.334813381,0.079862405,0.260946901,1,1,1
0.0073,0.0157,0.0,0.948869708,0.360832371,0.02601899,0.586182122,1,0,1
0.00015,0.0118,0.00185,0.935846497,0.104403065,0.256429306,0.013023211,1,0,0
0.00225,0.00605,0.002,1.040544267,0.328176782,0.223773717,0.10469777,1,1,1
0.0063,0.0133,0.00065,1.268744283,0.155884573,0.172292209,0.228200016,1,1,1
0.00585,0.0108,0.0027,1.449844443,0.157480157,0.001595585,0.18110016,1,1,1
0.0045,0.00995,0.00245,1.290284036,0.668281378,0.51080122,0.159560407,1,1,1
0.0134,0.01295,0.001,1.267488423,0.860523097,0.192241719,0.022795613,1,1,1
0.0071,0.001,0.00255,0.830249292,0.298328678,0.562194419,0.437239132,1,0,1
0.0004,0.0038,0.0005,0.854942515,0.228473193,0.069855485,0.024693224,1,0,1
0.00505,0.0152,0.0015,1.503180968,0.319217794,0.090744601,0.648238453,1,1,1
0.0036,0.00115,0.0008,1.46386257,0.279642629,0.039575165,0.039318398,1,1,1
0.0043,0.00475,0.00105,0.938668446,0.416893272,0.137250643,0.525194124,1,0,1
0.01355,0.0186,0.0016,1.359610208,0.614735716,0.197842444,0.420941762,1,1,1
0.00415,0.00495,0.00025,1.094521559,0.117473401,0.497262314,0.265088649,1,1,1
0.0072,0.01215,0.00025,1.057412215,0.617899668,0.500426267,0.037109344,1,1,1
0.0004,0.0137,0.00015,1.607273995,0.698856208,0.08095654,0.54986178,1,1,1
0.00105,0.00795,5e-05,1.23932969,1.994116346,1.295260137,0.367944305,1,1,1
0.003,0.00485,0.0023,0.770094607,1.781179385,0.212936961,0.469235083,1,0,1
0.0117,0.0127,0.0001,1.553083282,1.598530575,0.182648809,0.782988675,1,1,1
0.0036,0.00095,0.00015,1.283451628,0.949420876,0.649109699,0.269631653,1,1,1
0.00615,0.00895,0.0025,1.250986381,1.26984251,0.320421634,0.032465247,1,1,1
0.0101,0.0191,0.0032,1.871585154,3.764053666,2.494211156,0.620598772,1,1,1
0.01675,0.004,0.0032,1.792126638,2.522716789,1.241336876,0.079458515,1,1,1
0.00105,0.0168,0.00115,1.05041013,0.426731766,2.095985024,0.741716508,1,1,1
0.0081,0.0122,0.00095,1.202049809,2.087366762,1.660634996,0.151639679,1,1,1
0.0012,0.00365,0.0012,1.271973627,2.179931192,0.092564429,0.069923818,1,1,1
0.0105,0.00025,0.00425,0.840046992,2.581549922,0.40161873,0.431926635,1,0,1
0.0142,0.00645,0.00025,1.875709829,0.702210795,1.879339127,1.035662836,1,1,1
0.01205,0.0031,0.00195,1.230430635,0.95005263,0.247841836,0.645279193,1,1,1
0.00365,0.00625,0.00015,1.077292862,0.614247507,0.335805123,0.153137774,1,1,1
0.00255,0.0022,0.0027,0.390201176,2.556657975,1.942410468,0.687091686,1,0,1
0.018,0.012,0.00605,1.509045053,1.098453458,1.458204517,1.118843877,1,1,1
0.009,0.0144,0.00055,2.059688023,1.672871782,0.574418324,0.55064297,1,1,1
0.01585,0.00915,0.0045,1.223184658,2.054312537,0.381440755,0.836503365,1,1,1
0.0154,0.005,0.00395,1.221964435,0.998098192,1.056214346,0.001220223,1,1,0
0.0278,0.0047,0.00625,1.606550749,0.148996644,0.849101547,0.384586315,1,1,1
0.0161,0.0054,0.00325,1.016140717,0.946255779,0.797259135,0.590410033,1,1,1
0.01925,0.01905,0.00305,1.358879872,0.184661853,0.761593926,0.342739156,1,1,1
0.00505,0.00295,0.00045,1.126248212,0.107703296,0.076958557,0.23263166,1,1,1
0.0121,0.01525,0.00055,1.283911764,0.252586619,0.144883323,0.157663552,1,1,1
0.0058,0.0061,0.0013,1.245338383,0.143527001,0.109059618,0.038573381,1,1,1
0.0002,0.0005,0.0015,0.940442263,0.100498756,0.043028245,0.30489612,1,0,1
5e-05,5e-05,5e-05,0.951316198,0.100498756,0.0,0.010873936,0,0,0
5e-05,0.0,0.0,0.952455534,0.100498756,0.0,0.001139335,0,0,0
5e-05,0.0,5e-05,0.941382593,0.100498756,0.0,0.011072941,0,0,0
0.0,0.0,5e-05,0.951316198,0.100498756,0.0,0.009933606,0,0,0
5e-05,5e-05,0.0,0.952274178,0.100498756,0.0,0.00095798,0,0,0
5e-05,5e-05,0.0,0.951316198,0.100498756,0.0,0.00095798,0,0,0
5e-05,0.0,0.0,0.952455534,0.100498756,0.0,0.001139335,0,0,0
0.0,5e-05,5e-05,0.962578687,0.100498756,0.0,0.010123154,0,1,0
0.0,5e-05,5e-05,0.952455534,0.100498756,0.0,0.010123154,0,0,0
0.0,5e-05,0.0,0.952646186,0.100498756,0.0,0.000190652,0,0,0
5e-05,5e-05,5e-05,0.941382593,0.100498756,0.0,0.011263593,0,0,0
5e-05,0.0,0.0,0.942522981,0.100498756,0.0,0.001140389,0,0,0
5e-05,0.0,0.0001,0.961249927,0.100498756,0.0,0.018726946,0,1,0
0.0,5e-05,5e-05,0.951506871,0.100498756,0.0,0.009743056,0,0,0
0.0,5e-05,0.0001,0.93144911,0.100498756,0.0,0.020057761,0,0,0
5e-05,0.0,5e-05,0.942522981,0.100498756,0.0,0.011073871,0,0,0
0.0,0.0,5e-05,0.932590554,0.100498756,0.0,0.009932427,0,0,0
5e-05,0.0,5e-05,0.941382593,0.100498756,0.0,0.008792039,0,0,0
0.0,5e-05,5e-05,0.951506871,0.100498756,0.0,0.010124279,0,0,0
0.0,5e-05,5e-05,0.961249927,0.100498756,0.0,0.009743056,0,1,0
5e-05,5e-05,0.0,0.962207023,0.100498756,0.0,0.000957095,0,1,0
0.0,5e-05,0.0,0.962388211,0.100498756,0.0,0.000181188,0,1,0
5e-05,5e-05,5e-05,0.951506871,0.100498756,0.0,0.01088134,0,0,0
5e-05,0.0,5e-05,0.962578687,0.100498756,0.0,0.011071816,0,1,0
