Diff_Accel_X,Diff_Accel_Y,Diff_Accel_Z,Magnitude_Accel,Magnitude_Gyro,Diff_Mag_Gyro,Diff_Mag_Accel,Is_High_Accel,Is_High_Accel_2,Is_High_Accel_3
0.00045,5e-05,0.0019,0.619928023,0.223606798,0.123108042,0.357135585,1,0,1
0.0017,0.0024,0.00175,1.043855403,1.024890238,0.80128344,0.42392738,1,1,1
0.0007,0.00295,0.002,0.611037412,0.454862617,0.570027621,0.432817991,1,0,1
0.01325,0.0035,0.0047,1.356531719,0.797307971,0.342445354,0.745494307,1,1,1
0.01425,0.004,0.00085,1.405703905,0.147309199,0.649998772,0.049172186,1,1,1
0.00025,0.0001,0.002,1.004346348,0.100995049,0.046314149,0.401357557,1,1,1
0.0,5e-05,0.0001,0.984776307,0.100498756,0.000496293,0.01957004,0,1,0
5e-05,5e-05,0.0001,0.967385941,0.100995049,0.000496293,0.017390366,0,1,0
0.0,0.0,0.0,0.967385941,0.100498756,0.000496293,0.0,0,1,0
0.0006,0.01705,0.0048,2.408067005,1.060235823,0.959737067,1.440681064,1,1,1
0.0025,0.01765,0.0042,1.01022664,0.561159514,0.499076309,1.397840365,1,1,1
0.0059,0.0042,0.00045,1.21940561,2.664732632,2.103573118,0.20917897,1,1,1
0.0048,0.00465,0.0002,0.926602444,0.104880885,2.559851747,0.292803166,1,0,1
0.0005,0.0003,5e-05,0.955970435,0.092736185,0.0121447,0.029367991,1,0,1
5e-05,0.00015,0.00015,0.98371921,0.102956301,0.010220116,0.027748775,0,1,1
0.00125,5e-05,0.0,1.03929887,0.123693169,0.020736867,0.05557966,1,1,1
0.00075,0.0005,0.00075,1.223039508,0.339705755,0.216012586,0.183740638,1,1,1
0.00145,0.00185,0.0014,0.900869124,1.254511857,0.914806102,0.322170385,1,0,1
0.00065,0.00295,0.00065,0.977945073,0.226495033,1.028016824,0.07707595,1,1,1
0.0005,0.00065,0.0001,0.981734554,0.092736185,0.133758848,0.003789481,1,1,0
5e-05,0.00015,0.0001,0.959442365,0.377888873,0.285152688,0.02229219,0,1,1
0.0057,0.003,0.00125,1.024162785,0.408411557,0.030522685,0.06472042,1,1,1
0.0064,0.0032,0.00125,0.991570785,0.067082039,0.341329518,0.032592001,1,1,1
0.00115,0.00015,0.0003,0.999083294,0.197230829,0.13014879,0.00751251,1,1,0
0.0013,0.0002,0.00015,1.027903768,0.345543051,0.148312222,0.028820473,1,1,1
0.0013,0.00075,0.0,0.968166046,0.104880885,0.240662166,0.059737721,1,1,1
0.00085,0.0004,5e-05,1.015747778,0.210475652,0.105594767,0.047581732,1,1,1
0.0026,0.00195,0.0006,1.041812579,0.324499615,0.114023963,0.026064801,1,1,1
0.0056,0.0008,0.0018,1.140242228,0.134907376,0.189592239,0.098429649,1,1,1
0.0028,0.0004,0.00155,0.942169241,0.467867503,0.332960127,0.198072987,1,0,1
0.00085,0.0009,0.0008,1.05833781,0.224722051,0.243145452,0.116168569,1,1,1
0.0014,0.00055,0.00065,0.991278886,0.607618301,0.382896251,0.067058924,1,1,1
0.00255,0.00055,0.00065,0.996267874,0.813449445,0.205831144,0.004988987,1,1,0
0.0016,0.0,0.00045,0.998911982,0.225831796,0.587617649,0.002644109,1,1,0
0.001,0.0004,0.00025,0.903803062,0.126885775,0.09894602,0.09510892,1,0,1
0.00055,0.00035,0.0,0.880589871,0.121655251,0.005230525,0.023213191,1,0,1
5e-05,0.0,0.0004,0.960785287,0.090553851,0.031101399,0.080195416,1,1,1
0.00045,0.0,0.00015,0.951860304,0.100498756,0.009944905,0.008924983,1,0,0
0.00345,0.00415,0.0008,1.03293589,1.812125823,1.711627067,0.081075586,1,1,1
0.0022,0.0037,0.00105,1.063268385,1.712337584,0.09978824,0.030332495,1,1,1
0.00295,0.0034,5e-05,0.917788951,1.556181223,0.15615636,0.145479434,1,0,1
0.00275,0.00025,0.00035,0.974177463,0.137477271,1.418703953,0.056388512,1,1,1
0.0002,0.00065,0.0,0.980881226,0.09539392,0.042083351,0.006703763,1,1,0
0.0005,0.0008,5e-05,0.97009285,0.552268051,0.456874131,0.010788375,1,1,0
0.0015,0.0019,0.0005,0.944398541,0.686512928,0.134244877,0.025694309,1,0,1
0.0008,0.0005,0.00085,1.066913085,0.12083046,0.565682468,0.122514545,1,1,1
0.0003,0.00095,0.0005,0.989369768,0.29189039,0.171059931,0.077543317,1,1,1
0.00055,0.0008,0.00065,1.09253414,0.188414437,0.103475954,0.103164372,1,1,1
0.0004,0.0026,0.0004,1.025862552,0.147986486,0.040427951,0.066671588,1,1,1
0.00085,0.0008,0.0001,1.004776721,0.155241747,0.007255261,0.021085831,1,1,0
0.00125,0.00155,0.00015,1.095187011,0.083066239,0.072175508,0.090410289,1,1,1
0.00075,0.0021,0.00015,1.090312209,0.083066239,0.0,0.004874802,1,1,0
0.00055,0.0014,0.00035,1.045842521,0.089442719,0.00637648,0.044469687,1,1,1
0.0004,0.00085,0.00035,0.95810857,0.111803399,0.02236068,0.087733952,1,0,1
0.00035,0.0015,0.00035,1.051253384,0.084852814,0.026950585,0.093144814,1,1,1
0.0006,0.002,0.0001,1.031920421,0.09539392,0.010541106,0.019332963,1,1,0
0.0002,0.0001,0.0002,1.003318934,0.10198039,0.00658647,0.028601486,0,1,1
0.0009,0.00135,0.0003,0.996971798,0.136381817,0.034401427,0.006347137,1,1,0
0.0003,0.001,0.0001,0.996286399,0.174928557,0.03854674,0.000685399,1,1,0
0.0003,0.0009,0.0001,0.960901449,0.148996644,0.025931913,0.035384949,1,1,1
5e-05,0.0004,0.00025,1.006377746,0.164012195,0.01501555,0.045476297,1,1,1
0.0005,0.00065,0.0,0.981655717,0.148996644,0.01501555,0.024722029,1,1,1
0.0002,0.0001,0.0,0.991501286,0.112249722,0.036746923,0.009845569,0,1,0
5e-05,0.00055,0.0003,1.046589326,0.102469508,0.009780214,0.05508804,1,1,1
0.0002,0.0004,0.0002,0.998097055,0.106301458,0.00383195,0.048492271,1,1,1
0.00025,0.0007,0.0001,1.007006986,0.128840987,0.022539529,0.008909932,1,1,0
0.00025,0.00035,5e-05,1.003522574,0.082462113,0.046378875,0.003484413,1,1,0
0.0002,0.0011,5e-05,1.002832962,0.102469508,0.020007395,0.000689612,1,1,0
0.0001,0.00055,0.0001,0.989684889,0.092736185,0.009733323,0.013148073,1,1,0
0.0002,0.0008,0.0001,0.997745135,0.108166538,0.015430353,0.008060246,1,1,0
0.00045,0.0,0.0001,1.000398141,0.106301458,0.00186508,0.002653006,1,1,0
0.0004,0.00095,0.00015,0.993803778,0.111803399,0.005501941,0.006594363,1,1,0
0.00035,0.0012,0.00015,1.002869989,0.128062485,0.016259086,0.009066211,1,1,0
0.0002,0.0004,0.0001,0.993738926,0.131529464,0.00346698,0.009131063,1,1,0
0.00015,5e-05,0.0002,0.962685538,0.148660687,0.017131223,0.031053387,0,1,1
0.00085,0.00165,0.00035,0.991631017,0.18547237,0.036811682,0.028945478,1,1,1
0.0006,0.0015,0.00015,0.988530947,0.100995049,0.084477321,0.003100069,1,1,0
0.0001,5e-05,0.0,0.983529107,0.091104336,0.009890714,0.00500184,0,1,0
0.00015,0.0003,0.00015,1.005123785,0.106301458,0.015197122,0.021594678,1,1,0
0.0003,0.00025,0.00015,0.961324268,0.111803399,0.005501941,0.043799517,1,1,1
0.0003,0.00095,0.00015,0.977397645,0.139283883,0.027480484,0.016073377,1,1,0
5e-05,0.0008,0.00015,1.007576046,0.092736185,0.046547698,0.030178401,1,1,1
0.0005,0.0005,0.00015,1.002990327,0.115758369,0.023022184,0.00458572,1,1,0
0.0001,0.00015,0.0002,0.959595717,0.332415403,0.216657034,0.043394609,0,1,1
0.00095,0.00135,0.00015,0.94414259,0.115325626,0.217089777,0.015453127,1,0,0
0.00025,0.0,0.0001,0.952343931,0.117898261,0.002572635,0.00820134,0,0,0
0.00045,0.0007,5e-05,0.98147949,0.114455231,0.00344303,0.02913556,1,1,1
0.0005,0.00035,0.0002,1.044012173,0.128452326,0.013997094,0.062532682,1,1,1
0.0014,0.00135,0.0001,0.962913174,0.129614814,0.001162488,0.081098998,1,1,1
0.0004,0.0013,0.0005,1.075968922,0.092736185,0.036878629,0.113055748,1,1,1
0.0015,0.002,0.00105,0.951678939,0.169115345,0.07637916,0.124289984,1,0,1
0.0003,0.00065,0.0001,0.962420731,0.214009346,0.044894,0.010741793,1,1,0
0.0036,0.00205,0.00095,0.98188759,0.59849812,0.384488775,0.019466858,1,1,0
0.0002,5e-05,0.00015,1.018710644,0.147648231,0.45084989,0.036823054,0,1,1
0.00055,0.00135,0.0004,0.968458571,0.086023253,0.061624978,0.050252073,1,1,1
0.00055,0.00055,0.00025,1.044104389,0.106301458,0.020278205,0.075645818,1,1,1
0.0003,0.00045,0.0002,1.022213267,0.1396424,0.033340942,0.021891122,1,1,0
0.0,0.00065,0.0001,1.011281145,0.212367606,0.072725205,0.010932122,1,1,0
0.0019,0.00325,0.0004,0.832981708,0.163095064,0.049272542,0.178299437,1,0,1
0.0005,0.0005,0.00055,0.960659831,0.195448203,0.032353139,0.127678123,1,1,1
5e-05,0.00075,0.00015,0.996207668,0.092736185,0.102712018,0.035547836,1,1,1
5e-05,0.00035,0.0002,0.961426485,0.100995049,0.008258864,0.034781182,1,1,1
0.0005,5e-05,0.00015,1.010018501,0.13,0.029004951,0.048592016,1,1,1
0.00095,0.0011,0.0005,0.96197008,0.168226038,0.038226038,0.048048422,1,1,1
0.0007,0.00135,0.00015,0.949111591,0.100498756,0.067727282,0.012858489,1,0,0
0.00025,0.0004,0.0,0.962430023,0.111803399,0.011304643,0.013318432,1,1,0
0.00045,0.00035,0.0002,0.980895139,0.084852814,0.026950585,0.018465116,1,1,0
0.00065,0.0007,0.0001,0.982624912,0.098488578,0.013635764,0.001729773,1,1,0
0.0003,0.0004,0.0001,0.992451065,0.086023253,0.012465325,0.009826153,1,1,0
0.0002,0.00105,0.00025,0.944645178,0.110905365,0.024882112,0.047805887,1,0,1
5e-05,0.00095,0.00025,0.983287996,0.089442719,0.021462646,0.038642818,1,1,1
0.0003,0.0005,0.0,0.999115705,0.10198039,0.012537671,0.015827709,1,1,0
0.0001,0.00015,0.00025,0.944882503,0.103440804,0.001460414,0.054233202,0,0,1
0.00015,0.00065,5e-05,0.96690299,0.103923048,0.000482244,0.022020487,1,1,0
5e-05,0.0006,0.0001,0.982694468,0.081240384,0.022682664,0.015791478,1,1,0
5e-05,0.0003,0.00025,0.933410455,0.091104336,0.009863952,0.049284013,1,0,1
0.0,0.0001,0.0002,0.971819716,0.103923048,0.012818713,0.038409261,0,1,1
0.00015,0.0,0.0,0.96576054,0.087749644,0.016173405,0.006059176,0,1,0
0.0003,0.00035,0.00035,0.912226659,0.174642492,0.086892848,0.05353388,1,0,1
0.00025,0.0001,0.00025,0.950079069,0.11045361,0.064188882,0.03785241,0,0,1
0.00025,0.0003,0.0001,0.962253481,0.083066239,0.027387372,0.012174412,1,1,0
5e-05,0.00025,5e-05,0.972474182,0.090553851,0.007487613,0.0102207,0,1,0
0.0,0.0002,0.0002,1.009727101,0.090553851,0.0,0.037252919,0,1,1
0.0,5e-05,0.0,1.00926917,0.100995049,0.010441198,0.000457931,0,1,0
0.0002,0.00015,0.0003,0.944123975,0.13190906,0.03091401,0.065145195,1,0,1
0.0003,0.0009,5e-05,0.975829434,0.130384048,0.001525011,0.031705459,1,1,1
0.0,0.0002,0.00015,0.943956441,0.09486833,0.035515718,0.031872994,0,0,1
0.0001,0.0011,0.0002,0.975834074,0.103923048,0.009054719,0.031877634,1,1,1
0.0001,0.00015,5e-05,0.968871807,0.09539392,0.008529128,0.006962267,0,1,0
5e-05,0.0003,0.00015,1.002694108,0.086023253,0.009370667,0.033822301,1,1,1
0.00035,0.00035,0.0002,0.97512877,0.114455231,0.028431979,0.027565339,1,1,1
0.0003,0.0,0.00015,0.992112861,0.111803399,0.002651833,0.016984091,1,1,0
0.00015,0.0002,5e-05,0.997411727,0.084852814,0.026950585,0.005298866,0,1,0
5e-05,0.00035,5e-05,1.00828386,0.083066239,0.001786575,0.010872133,1,1,0
0.0001,0.0003,0.0003,0.950897637,0.102469508,0.019403269,0.057386223,1,0,1
5e-05,5e-05,0.0,0.953343666,0.110905365,0.008435857,0.002446029,0,0,0
0.0005,0.00115,0.0001,1.005836386,0.123693169,0.012787804,0.05249272,1,1,1
5e-05,0.00115,0.00035,0.927376194,0.060827625,0.062865543,0.078460192,1,0,1
0.00075,0.0016,0.0005,0.985365084,0.098488578,0.037660953,0.057988891,1,1,1
0.00045,0.0012,0.0001,1.028914996,0.112249722,0.013761144,0.043549912,1,1,1
0.0004,0.0005,0.0002,0.970487454,0.114455231,0.00220551,0.058427542,1,1,1
0.00015,0.00065,5e-05,0.970891328,0.096953597,0.017501634,0.000403874,1,1,0
0.00045,0.00215,0.0,1.014346952,0.086023253,0.010930344,0.043455624,1,1,1
0.00035,0.0023,0.00015,1.003207857,0.102469508,0.016446255,0.011139095,1,1,0
0.00025,0.0008,0.0003,0.961700609,0.123693169,0.021223661,0.041507248,1,1,1
0.0002,0.00075,0.0,0.978696582,0.108166538,0.015526631,0.016995973,1,1,0
0.0008,0.00075,0.0001,0.956830388,0.139283883,0.031117345,0.021866194,1,0,0
0.0002,0.0023,0.0002,0.990746035,0.116619038,0.022664845,0.033915647,1,1,1
0.0004,0.0018,0.0001,1.035321869,0.090553851,0.026065187,0.044575833,1,1,1
5e-05,0.0002,0.00035,0.967450952,0.102469508,0.011915656,0.067870917,1,1,1
0.00015,0.0009,0.0002,0.995133163,0.106301458,0.00383195,0.027682211,1,1,1
0.0001,0.00015,0.00015,0.962318523,0.136381817,0.030080359,0.032814639,0,1,1
0.0001,0.00235,5e-05,0.989165862,0.072801099,0.063580718,0.026847339,1,1,1
0.0002,0.0008,5e-05,0.997638631,0.092736185,0.019935086,0.008472769,1,1,0
0.00025,0.00055,0.0002,1.021413956,0.120415946,0.027679761,0.023775325,1,1,1
0.00025,0.0006,0.00035,0.968853235,0.111803399,0.008612547,0.052560721,1,1,1
0.00015,0.001,5e-05,0.965361118,0.092195445,0.019607954,0.003492117,1,1,0
0.00015,0.0019,0.0,0.938766223,0.125698051,0.033502606,0.026594895,1,0,1
0.0003,5e-05,0.0001,0.970970244,0.102469508,0.023228543,0.032204021,1,1,1
0.00015,0.0005,0.0001,0.961863222,0.076811457,0.02565805,0.009107023,1,1,0
0.00035,0.0004,0.0002,1.01239104,0.099498744,0.022687286,0.050527818,1,1,1
0.00025,0.00075,0.0001,0.977393006,0.117046999,0.017548255,0.034998034,1,1,1
0.00045,0.0007,5e-05,0.972919753,0.106301458,0.010745541,0.004473253,1,1,0
0.0008,0.0019,0.00035,0.959530659,0.122065556,0.015764098,0.013389094,1,1,0
0.0002,0.00065,0.00035,0.891477915,0.315753068,0.193687512,0.068052744,1,0,1
0.0002,0.00065,0.00055,0.998458223,0.222934968,0.0928181,0.106980309,1,1,1
0.00075,0.0005,0.00045,1.04786154,0.20904545,0.013889518,0.049403317,1,1,1
0.0022,0.00105,0.00025,0.906563408,0.21023796,0.001192511,0.141298133,1,0,1
0.00095,0.0002,0.00055,1.04935482,0.358329457,0.148091497,0.142791412,1,1,1
5e-05,0.0002,0.0013,0.794205964,0.193390796,0.164938661,0.255148856,1,0,1
0.00155,0.0012,0.00035,0.777041174,0.147986486,0.04540431,0.017164789,1,0,0
0.0002,0.0015,0.00065,0.925674804,0.174928557,0.026942071,0.14863363,1,0,1
0.00105,0.00055,0.0005,0.987627172,0.107703296,0.067225261,0.061952368,1,1,1
0.001,0.0003,0.0,0.946948404,0.121243557,0.01354026,0.040678768,1,0,1
0.00015,0.00035,0.00025,0.986778945,0.072801099,0.048442458,0.039830541,1,1,1
0.00135,0.00055,0.0004,1.029432118,0.134907376,0.062106277,0.042653173,1,1,1
0.0009,0.0005,0.0002,0.958931174,0.124096736,0.010810639,0.070500944,1,0,1
0.00155,0.0,0.00035,0.934644847,0.380657326,0.25656059,0.024286326,1,0,1
0.0007,0.0008,0.0003,0.964617968,0.171464282,0.209193044,0.029973121,1,1,1
5e-05,0.00195,0.0004,1.033078971,0.043588989,0.127875293,0.068461003,1,1,1
0.00085,0.0003,0.0001,1.079103823,0.16881943,0.125230441,0.046024852,1,1,1
0.00755,0.00405,0.00205,1.066066446,0.200997512,0.032178082,0.013037378,1,1,0
0.00385,0.00275,0.00095,1.012756355,0.441927596,0.240930083,0.05331009,1,1,1
0.0008,0.00115,0.0003,0.986612072,0.228473193,0.213454403,0.026144283,1,1,1
0.00105,0.00115,0.00045,1.024292125,0.221359436,0.007113757,0.037680052,1,1,1
0.001,0.00065,0.0007,0.934756634,0.133790882,0.087568555,0.08953549,1,0,1
0.0018,0.0011,0.00025,0.807077826,0.171464282,0.0376734,0.127678809,1,0,1
0.0008,0.0021,0.0024,1.307857579,0.275862284,0.104398002,0.500779754,1,1,1
0.0012,0.00155,0.00125,1.013237258,0.100995049,0.174867235,0.294620321,1,1,1
5e-05,0.0,0.00025,0.966303915,0.100498756,0.000496293,0.046933343,0,1,1
0.0,5e-05,5e-05,0.976247028,0.100498756,0.0,0.009943112,0,1,0
5e-05,5e-05,5e-05,0.983858308,0.100498756,0.0,0.00761128,0,1,0
0.0,0.0,0.0,0.983858308,0.100498756,0.0,0.0,0,1,0
0.0,5e-05,0.0,0.984011313,0.100498756,0.0,0.000153005,0,1,0
0.0,5e-05,5e-05,0.974066085,0.100498756,0.0,0.009945228,0,1,0
0.0,5e-05,0.0,0.974219229,0.100498756,0.0,0.000153144,0,1,0
0.0,0.0,5e-05,0.984011313,0.100498756,0.0,0.009792084,0,1,0
0.0,0.0,5e-05,0.974219229,0.100498756,0.0,0.009792084,0,1,0
0.0,0.0,0.0,0.974219229,0.100498756,0.0,0.0,0,1,0
0.0001,5e-05,0.0001,0.98962928,0.100498756,0.0,0.015410051,0,1,0
0.0001,5e-05,0.0,0.993803778,0.100498756,0.0,0.004174498,0,1,0
0.0,5e-05,0.0001,0.974066085,0.100498756,0.0,0.019737693,0,1,0
0.0,0.0,5e-05,0.983858308,0.100498756,0.0,0.009792223,0,1,0
0.0,5e-05,5e-05,0.974219229,0.100498756,0.0,0.009639078,0,1,0
5e-05,0.0,0.0,0.972200332,0.100498756,0.0,0.002018897,0,1,0
5e-05,0.0,5e-05,0.984011313,0.100498756,0.0,0.011810981,0,1,0
0.0,0.0,0.0,0.984011313,0.100498756,0.0,0.0,0,1,0
0.0,0.0,5e-05,0.974219229,0.100498756,0.0,0.009792084,0,1,0
0.0,0.0,5e-05,0.964427528,0.100498756,0.0,0.009791702,0,1,0
5e-05,0.0,5e-05,0.972200332,0.100498756,0.0,0.007772805,0,1,0
0.0,0.0,5e-05,0.98199425,0.100498756,0.0,0.009793917,0,1,0
0.0,5e-05,0.0,0.981841216,0.100498756,0.0,0.000153034,0,1,0
5e-05,5e-05,0.0,0.984011313,0.100498756,0.0,0.002170097,0,1,0
0.0,0.0,0.0,0.984011313,0.100498756,0.0,0.0,0,1,0
0.0,5e-05,5e-05,0.974066085,0.100498756,0.0,0.009945228,0,1,0
0.0,0.0,0.0,0.974066085,0.100498756,0.0,0.0,0,1,0
5e-05,0.0,5e-05,0.985884294,0.100498756,0.0,0.011818209,0,1,0
0.0,0.0,0.00125,0.741242811,0.090553851,0.009944905,0.244641483,1,0,1
0.00015,0.0005,0.0041,1.552220047,0.274772633,0.184218782,0.810977236,1,1,1
0.004,0.0034,0.00535,0.745501411,1.544635879,1.269863246,0.806718637,1,0,1
0.00305,0.0051,0.00075,1.036392389,0.327566787,1.217069092,0.290890978,1,1,1
0.004,0.00195,0.0002,0.838021433,0.278208555,0.049358232,0.198370956,1,0,1
0.00055,0.0021,0.002,1.21607008,0.270739727,0.007468827,0.378048647,1,1,1
0.0011,0.0001,0.0005,1.065385405,0.064031242,0.206708485,0.150684675,1,1,1
0.00035,0.0009,0.00085,0.897728731,0.118743421,0.054712178,0.167656674,1,0,1
0.0005,0.00165,0.00055,1.005304253,0.118743421,0.0,0.107575522,1,1,1
0.0001,0.00345,0.0002,1.0351419,0.114455231,0.004288189,0.029837647,1,1,1
0.0006,0.00025,0.0005,1.104503657,0.120415946,0.005960714,0.069361756,1,1,1
0.0002,0.0026,0.00065,0.977555381,0.085440037,0.034975908,0.126948275,1,1,1
0.0001,0.00105,5e-05,0.985226006,0.147648231,0.062208193,0.007670625,1,1,0
0.0005,0.00335,0.0002,1.004212142,0.080622577,0.067025653,0.018986136,1,1,0
0.0006,0.00195,0.0001,0.970900612,0.124096736,0.043474159,0.033311529,1,1,1
5e-05,5e-05,0.00015,0.944393887,0.11,0.014096736,0.026506725,0,0,1
0.00015,0.0,0.0003,1.009518953,0.12328828,0.01328828,0.065125066,1,1,1
5e-05,0.001,0.00015,0.974790021,0.136014705,0.012726425,0.034728932,1,1,1
0.0001,0.00085,0.0003,0.918274115,0.076811457,0.059203248,0.056515906,1,0,1
0.0001,0.0005,0.0003,0.968110326,0.073484692,0.003326765,0.049836212,1,1,1
0.0001,0.00045,0.0001,0.980282928,0.100995049,0.027510357,0.012172601,1,1,0
0.00015,0.00165,0.0001,0.981702092,0.066332496,0.034662554,0.001419164,1,1,0
0.0001,5e-05,0.0004,1.054556647,0.082462113,0.016129617,0.072854555,1,1,1
0.0001,0.0,0.0005,0.96166344,0.140356688,0.057894576,0.092893207,1,1,1
0.0002,0.00015,5e-05,0.960827106,0.122065556,0.018291132,0.000836334,0,1,0
0.0003,0.00095,0.0,0.965467942,0.100995049,0.021070507,0.004640836,1,1,0
0.00015,0.00025,0.00035,0.906175788,0.09539392,0.005601129,0.059292154,1,0,1
0.0004,0.00055,0.00055,0.991218652,0.09539392,0.0,0.085042864,1,1,1
0.0001,0.00045,0.00015,0.969633234,0.090553851,0.004840069,0.021585418,1,1,0
0.0002,0.0012,0.0,0.973049707,0.081240384,0.009313467,0.003416473,1,1,0
5e-05,0.00085,0.0002,1.004989588,0.143178211,0.061937827,0.031939881,1,1,1
0.0003,0.0008,0.00025,0.978260528,0.117046999,0.026131212,0.026729061,1,1,1
0.00035,0.00025,0.00015,0.988966586,0.112249722,0.004797278,0.010706059,1,1,0
0.0002,0.0015,0.00025,1.016288643,0.275317998,0.163068276,0.027322056,1,1,1
0.0,0.00165,0.0003,0.972279239,0.053851648,0.22146635,0.044009404,1,1,1
0.00015,0.00095,0.0001,0.988669983,0.115758369,0.061906721,0.016390744,1,1,0
0.0,0.0,5e-05,0.978919241,0.054772256,0.060986113,0.009750742,0,1,0
0.00035,0.0008,0.00015,1.0010231,0.096953597,0.042181341,0.022103859,1,1,0
0.0002,0.0006,0.0004,1.078184591,0.099498744,0.002545147,0.077161492,1,1,1
0.00125,0.0009,0.001,0.951957961,0.262297541,0.162798797,0.12622663,1,0,1
0.00025,0.00135,0.00035,0.989036102,0.144222051,0.11807549,0.03707814,1,1,1
0.0007,0.00025,0.0001,0.999324053,0.124498996,0.019723055,0.010287951,1,1,0
0.00145,0.00295,0.00065,1.044542406,0.133416641,0.008917645,0.045218353,1,1,1
0.00115,0.00185,0.0006,0.985068382,0.065574385,0.067842255,0.059474024,1,1,1
0.00055,0.00075,0.00105,0.761789621,0.323109888,0.257535503,0.223278761,1,0,1
0.00175,0.0004,0.00185,1.208505802,0.118743421,0.204366468,0.446716181,1,1,1
0.0002,0.001,0.00085,1.047087167,0.092195445,0.026547976,0.161418636,1,1,1
0.00115,0.00075,0.0,0.981627892,0.131529464,0.03933402,0.065459275,1,1,1
0.0001,0.0007,0.0001,1.015003467,0.120415946,0.011113519,0.033375575,1,1,1
0.0006,0.00105,0.00045,0.943058224,0.154272486,0.03385654,0.071945244,1,0,1
5e-05,0.00105,0.00045,1.023428292,0.137477271,0.016795215,0.080370069,1,1,1
0.00075,0.0004,0.00085,0.899953271,0.198746069,0.061268798,0.123475021,1,0,1
0.001,0.0017,0.0011,1.054114427,0.091104336,0.107641733,0.154161156,1,1,1
0.0007,0.00215,0.00075,0.888601405,0.242487113,0.151382777,0.165513022,1,0,1
0.00115,0.00145,0.00035,1.029722988,0.123693169,0.118793944,0.141121583,1,1,1
0.0027,0.0023,0.0012,0.992631746,0.078740079,0.04495309,0.037091242,1,1,1
0.0038,0.002,0.0011,0.962773806,0.140712473,0.061972394,0.02985794,1,1,1
0.0001,0.001,0.0001,0.972098217,0.118743421,0.021969052,0.009324411,1,1,0
0.0004,0.00075,5e-05,0.991946071,0.139283883,0.020540462,0.019847854,1,1,0
0.0002,0.0005,0.0,0.977982186,0.1356466,0.003637283,0.013963885,1,1,0
0.00065,0.0008,0.0002,0.981957151,0.160934769,0.02528817,0.003974965,1,1,0
0.0008,0.0011,0.00045,0.939129387,0.18493242,0.023997651,0.042827763,1,0,1
0.0007,0.00065,0.0003,0.971972893,0.108166538,0.076765882,0.032843505,1,1,1
0.0002,0.00025,0.0002,1.00507751,0.136014705,0.027848167,0.033104617,0,1,1
0.0003,0.00045,0.00025,0.975838714,0.064807407,0.071207298,0.029238796,1,1,1
0.00135,0.0012,5e-05,1.069245604,0.073484692,0.008677285,0.09340689,1,1,1
0.00165,0.00015,0.00025,0.940679681,0.133416641,0.059931948,0.128565923,1,0,1
0.0,0.00125,0.0006,1.037541234,0.073484692,0.059931948,0.096861554,1,1,1
0.00045,0.00075,0.0002,0.97009285,0.107703296,0.034218604,0.067448384,1,1,1
0.00035,0.0003,0.0001,0.969038954,0.161554944,0.053851648,0.001053896,1,1,0
0.0005,0.00025,5e-05,0.998175772,0.442379927,0.280824983,0.029136818,1,1,1
0.00085,0.0005,0.0004,0.966471102,0.203469899,0.238910028,0.031704669,1,1,1
0.0007,0.00075,0.00035,0.992687339,0.282488938,0.079019038,0.026216237,1,1,1
0.00025,0.0008,0.00015,0.945273379,0.304302481,0.021813543,0.04741396,1,0,1
0.0001,0.0002,0.0003,0.997874791,0.158429795,0.145872686,0.052601411,1,1,1
0.00075,0.00055,0.0002,0.990593125,0.195192213,0.036762418,0.007281665,1,1,0
0.0001,0.0003,0.00025,0.945706119,0.187082869,0.008109344,0.044887006,1,0,1
0.00035,0.00205,0.0001,0.962852782,0.177200451,0.009882418,0.017146662,1,1,0
0.00115,0.00095,0.0,1.010282142,0.242899156,0.065698705,0.047429361,1,1,1
5e-05,0.0003,0.00015,0.981085289,0.192093727,0.050805429,0.029196854,1,1,1
0.0021,0.00035,0.00035,0.948050986,0.213541565,0.021447838,0.033034302,1,0,1
0.0013,0.0001,0.00025,0.943542246,0.130384048,0.083157517,0.00450874,1,0,0
0.0018,0.0001,0.0003,0.96024628,0.092195445,0.038188604,0.016704033,1,1,0
